# XDI/1.0 PILATUS/100K BLA/4
# Beamline.collimation: none
# Beamline.focusing: HR mirror in the vertical, KB mirror in the horizontal
# Beamline.harmonic_rejection: Pt coated mirror
# Beamline.incident_energy: 19100 eV
# Beamline.name: APS 10ID (MRCAT)
# Detector.herfd: bent Laue analyzer, Si(660), Pilatus 100K
# Detector.i0: 1cm N2
# Detector.ifl: pin diode
# Detector.ir: 30cm N2
# Detector.it: 10cm N2
# Facility.energy: 7.00 GeV
# Facility.source: APS Undulator A
# Mono.d_spacing: 3.13553
# Mono.name: Si (111)
# Column.1: energy eV
# Column.2: xes
# Column.3: npixels
# Element.element: Bi
# Element.line: Lg3
# /////////////////////////
# Mask building steps:
#   bad 400 weak 3 power 1
#   gaussian 4.00
#   andmask
# Excluded region: xrange = 60 410
# -------------------------
#  energy      xes      npixels    1          2          3          4          5          6
  15658.000  8.6441578     659  8.3687405  8.3490137  8.5098634  8.4977238  8.8725341  9.2670713
  15658.500  8.9234450     627  8.6124402  8.6251994  8.7799043  8.8437002  9.1259968  9.5534290
  15659.000  9.2223043     677  8.8596750  8.8596750  9.0901034  9.1861152  9.4460857  9.8921713
  15659.500  9.4160363     661  9.0105900  9.0953101  9.2692890  9.4478064  9.6248109  10.0484115
  15660.000  9.6380597     670  9.1776119  9.3910448  9.5149254  9.6776119  9.8313433  10.2358209
  15660.500  9.8562044     685  9.3722628  9.5810219  9.7678832  9.8642336  10.0978102  10.4540146
  15661.000  10.0238439     692  9.5187861  9.7471098  9.9205202  10.0578035  10.2890173  10.6098266
  15661.500  10.3207729     690  9.8434783  10.0884058  10.1289855  10.4000000  10.5710145  10.8927536
  15662.000  10.4968370     685  10.0481752  10.3124088  10.3211679  10.5255474  10.7591241  11.0145985
  15662.500  10.8196280     681  10.4052863  10.5859031  10.6446402  10.8972100  11.1145374  11.2701909
  15663.000  11.6596618     690  11.1275362  11.4695652  11.4550725  11.6985507  12.0898551  12.1173913
  15663.500  12.5156174     683  11.9297218  12.3147877  12.2284041  12.4992679  12.9619327  13.1595900
  15664.000  11.9259259     630  11.4000000  11.7349206  11.6730159  11.9619048  12.3968254  12.3888889
  15664.500  21.2663329     699  20.9070100  21.1587983  20.6909871  21.0185980  21.5679542  22.2546495
  15665.000  28.1983908     725  27.8041379  28.2013793  27.4124138  27.8137931  28.5489655  29.4096552
  15665.500  13.7331111     750  12.9733333  13.4866667  13.3480000  13.7533333  14.2040000  14.6333333
  15666.000  14.3079184     964  13.5601660  14.1037344  13.9522822  14.2136929  14.7956432  15.2219917
  15666.500  15.1828883    1161  14.4031008  14.9130060  14.8596038  15.1360896  15.6511628  16.1343669
  15667.000  15.8932611    1385  14.9184116  15.5566787  15.6765343  15.8693141  16.3841155  16.9545126
  15667.500  16.3980069    1639  15.3435021  16.0646736  16.2294082  16.2940818  16.9560708  17.5003051
  15668.000  16.8775884    1819  15.8927982  16.4623419  16.7031336  16.7872457  17.3754810  18.0445300
  15668.500  17.5559967    2015  16.5339950  17.1766749  17.4039702  17.5012407  17.9841191  18.7359801
  15669.000  18.2936508    2163  17.2325474  17.8511327  18.1414702  18.2380952  18.7318539  19.5668054
  15669.500  19.2330042    2329  18.1872048  18.7569772  19.0437956  19.1696007  19.6371833  20.6032632
  15670.000  20.2628976    2494  19.0842021  19.8243785  20.0148356  20.2281476  20.7201283  21.7056937
  15670.500  21.5830525    2671  20.3496818  21.0950955  21.2781730  21.5739423  22.0250842  23.1763385
  15671.000  22.5810621    2605  21.3800384  22.0437620  22.2518234  22.5362764  22.9953935  24.2790787
  15671.500  23.6795890    2644  22.3286687  23.1327534  23.3502269  23.5866112  24.1365356  25.5427383
  15672.000  25.2793813    2737  23.6887103  24.6905371  24.9053708  25.2027768  25.8089149  27.3799781
  15672.500  26.5897855    2751  24.8891312  25.9930934  26.1930207  26.5543439  27.1428571  28.7662668
  15673.000  28.3819254    2912  26.4896978  27.6706731  27.9615385  28.3650412  29.0140797  30.7905220
  15673.500  30.4787307    2915  28.3310463  29.6861063  30.1162950  30.4202401  31.2404803  33.0782161
  15674.000  33.0594583    3089  30.8484947  32.1829071  32.7180317  32.9857559  33.8060861  35.8154743
  15674.500  35.4672365    3159  33.0218424  34.4254511  35.1190250  35.3849319  36.3485280  38.5036404
  15675.000  38.5464148    3203  35.8011239  37.3565407  38.1529816  38.4839213  39.5429285  41.9409928
  15675.500  42.1563115    3219  39.1068655  40.8195092  41.6971109  41.9990680  43.3488661  45.9664492
  15676.000  45.9035061    3299  42.5283419  44.4665050  45.3304032  45.7102152  47.3734465  50.0121249
  15676.500  50.3558394    3288  46.4939173  48.7904501  49.7661192  50.1922141  52.0854623  54.8068735
  15677.000  55.4333232    3282  50.9762340  53.7029250  54.7638635  55.2602072  57.3665448  60.5301645
  15677.500  62.1455265    3327  56.9170424  60.1800421  61.4508566  62.1665164  64.2590923  67.8996093
  15678.000  70.7233005    3349  64.5667363  68.4756644  69.9737235  70.6954315  73.2412660  77.3869812
  15678.500  78.8297851    3382  71.6661739  76.3196334  78.0106446  78.9222354  81.6812537  86.3787700
  15679.000  88.2794001    3356  80.0646603  85.3280691  87.4392133  88.4731824  91.5333731  96.8379023
  15679.500  100.1127179    3423  90.5994741  96.6362840  98.9488753  100.5813614  103.8188723  110.0914403
  15680.000  113.5085812    3496  102.4499428  109.5134439  112.2548627  113.9733982  117.9233410  124.9364989
  15680.500  128.9677666    3485  116.4074605  124.1652798  127.4321377  129.5317073  134.1704448  142.0995696
  15681.000  146.7646865    3535  132.7431400  141.2240453  144.9349364  147.3428571  152.6828854  161.6602546
  15681.500  163.9618027    3591  148.5845168  157.9646338  161.8304094  164.4235589  170.4725703  180.4951267
  15682.000  183.2198948    3676  166.7826442  176.4496736  180.7758433  183.6686616  190.3163765  201.3261697
  15682.500  201.7861685    3774  185.1449391  194.7480127  198.8261791  201.9456810  209.0331214  221.0190779
  15683.000  221.8746575    3771  205.0490586  214.6067356  218.4762662  221.6380270  229.3712543  242.1066030
  15683.500  236.0038709    3789  220.0504091  228.9675376  232.2016363  235.2607548  243.0649248  256.4779625
  15684.000  247.0051807    3957  233.0813748  240.4723275  242.8415466  245.5592621  253.3636593  266.7129138
  15684.500  253.6720107    3992  241.7915832  247.7945892  248.8875251  251.5741483  259.6144790  272.3697395
  15685.000  254.2227153    4169  245.4005757  249.1511154  249.1724634  251.2177980  259.1861358  271.2082034
  15685.500  248.7405370    4271  242.9796301  244.7677359  243.5734020  245.0681339  252.5703582  263.4839616
  15686.000  238.4045699    4340  235.4165899  235.6444700  233.2654378  234.2880184  241.0483871  250.7645161
  15686.500  221.8334093    4386  221.4053808  220.3002736  216.8424533  217.2562699  223.3317373  231.8643411
  15687.000  207.9920476    4485  208.9919732  207.3609810  203.5228540  203.3166109  208.5545151  216.2053512
  15687.500  191.2124945    4586  193.4566071  191.2010467  187.0715220  186.3713476  191.2202355  197.9542085
  15688.000  173.4512985    4531  176.3851247  173.9446038  169.8684617  168.8903112  172.9108365  178.7084529
  15688.500  155.2299109    4451  158.5383060  156.2743204  152.1114356  150.8564368  154.1572680  159.4416985
  15689.000  138.0115330    4451  141.5794204  139.1157043  135.0921141  133.9977533  136.9779825  141.3062233
  15689.500  121.6561100    4389  125.1847801  122.7190704  118.9455457  117.9696970  120.7051720  124.4123946
  15690.000  109.5481895    4299  112.8536869  110.4498721  107.1211910  106.0651314  108.6985345  112.1007211
  15690.500  95.7393733    4266  98.8112986  96.5881388  93.5607126  92.6228317  94.9001406  97.9531177
  15691.000  86.1162700    4286  89.0128325  86.8947737  84.0093327  83.2489501  85.3345777  88.1971535
  15691.500  77.3787127    4231  80.0106358  78.0683054  75.4807374  74.7189790  76.6078941  79.3857244
  15692.000  68.8163573    4202  71.2686816  69.2401238  67.1815802  66.4578772  68.2248929  70.5249881
  15692.500  62.7698902    4219  64.8400095  63.2832425  61.2621474  60.5878170  62.2467409  64.3993837
  15693.000  56.4235610    4158  58.1762867  56.8282828  55.0418470  54.6041366  55.9862915  57.9045214
  15693.500  52.2175840    4324  53.6567993  52.5527290  51.0439408  50.7111471  51.7398242  53.6010638
  15694.000  47.2973223    4332  48.5156971  47.5821791  46.2555402  45.9014312  46.9662973  48.5627886
  15694.500  43.2137051    4429  44.1799503  43.4745992  42.2646196  41.9033642  43.0623166  44.3973809
  15695.000  39.9022624    4420  40.6524887  40.2291855  39.0495475  38.7549774  39.6981900  41.0291855
  15695.500  36.7628319    4494  37.3351135  37.0558522  35.9198932  35.8146417  36.6753449  37.7761460
  15696.000  34.5044906    4528  35.0247350  34.8217756  33.6797703  33.5468198  34.4832155  35.4706272
  15696.500  31.8410989    4550  32.3006593  32.0628571  31.0894505  30.9716484  31.8151648  32.8068132
  15697.000  29.7932926    4587  30.0843689  29.9566165  29.1377807  29.0294310  29.8207979  30.7307608
  15697.500  27.7757274    4525  28.0764641  27.9045304  27.1575691  27.0530387  27.8216575  28.6411050
  15698.000  26.3012239    4412  26.4428830  26.4796011  25.7910245  25.6131006  26.3748867  27.1058477
  15698.500  24.9960914    4392  25.0170765  25.1083789  24.5325592  24.3902550  25.0721767  25.8561020
  15699.000  23.7845604    4292  23.6766076  23.9275396  23.4075023  23.2246039  23.7851817  24.6859273
  15699.500  22.7232804    4095  22.5636142  22.8183150  22.2847375  22.1973138  22.7689866  23.7067155
  15700.000  21.7258974    4021  21.4730167  21.7580204  21.3817458  21.2673464  21.8236757  22.6515792
  15700.500  20.7410561    3876  20.3955108  20.6973684  20.4040248  20.3658411  20.8575851  21.7260062
  15701.000  20.0079641    3746  19.6676455  19.9265884  19.7530699  19.6091831  20.1219968  20.9693006
  15701.500  19.3578595    3588  19.0404125  19.2973802  19.0119844  18.9506689  19.4960981  20.3506132
  15702.000  18.5052736    3350  18.1847761  18.4268657  18.1934328  18.1262687  18.7023881  19.3979104
  15702.500  17.8579957    3406  17.5581327  17.7510276  17.5369935  17.5772167  18.0020552  18.7225484
  15703.000  17.1732436    3269  16.8702967  17.1104313  16.8715203  16.9403487  17.3007036  17.9461609
  15703.500  16.6051338    3188  16.2936010  16.5109787  16.2678795  16.3980552  16.7547051  17.4055834
  15704.000  16.1454983    3047  15.8674106  16.0331474  15.8178536  15.9786675  16.2681326  16.9077781
  15704.500  15.6705666    3077  15.3958401  15.6122847  15.3639909  15.5420864  15.7192070  16.3899903
  15705.000  15.1778353    2895  14.8100173  15.1326425  14.8621762  15.0960276  15.2597582  15.9063903
  15705.500  14.7999119    2648  14.3806647  14.7518882  14.5540030  14.7228097  14.8138218  15.5762840
  15706.000  14.4298519    2566  14.0537802  14.3939984  14.1360094  14.3530787  14.5085737  15.1336711
  15706.500  14.1188700    2413  13.8122669  14.0426855  13.8350601  14.0576046  14.1620390  14.8035640
  15707.000  13.8453726    2478  13.5581114  13.7469734  13.6246973  13.7590799  13.8833737  14.5000000
  15707.500  13.4982270    2350  13.2906383  13.3519149  13.2625532  13.3544681  13.6076596  14.1221277
  15708.000  13.1153846    2210  12.8769231  13.0212670  12.9009050  12.9656109  13.2665158  13.6610860
  15708.500  12.8777521    2165  12.6360277  12.7006928  12.6794457  12.8036952  13.0692841  13.3773672
  15709.000  12.6837821    2191  12.4500228  12.5066180  12.4171611  12.6499315  12.9269740  13.1519854
  15709.500  12.4144398    2133  12.2400375  12.2315987  12.2001875  12.3816221  12.6291608  12.8040319
